ax,ay,az
4172,-528,-17652
6240,2356,-17060
10508,3268,-15292
12944,-476,-13632
6344,-5324,-12572
3240,-1908,-15620
3132,1072,-17128
9680,3480,-18160
13016,704,-14668
9408,-2752,-11448
5824,-3644,-14352
2736,-920,-16524
5972,1036,-17264
9868,3472,-16260
12800,-304,-14060
7056,-5324,-11920
4288,-2900,-15768
5780,2036,-18864
8312,3728,-17172
11184,1844,-14192
10192,-2552,-13024
6184,-4700,-14160
3972,-148,-17224
5988,2448,-17196
10492,3464,-16012
13172,-652,-13904
6948,-5444,-12296
3860,-2328,-15820
2536,-356,-16848
8116,3180,-17392
12816,2084,-15308
10708,-2136,-12248
5796,-4288,-13252
3308,-2300,-16164
6604,348,-17888
9296,4100,-16392
12540,444,-13936
7908,-5240,-12200
4544,-3536,-15508
4608,1256,-18308
7832,3696,-16964
11272,2136,-14548
10796,-1752,-12924
6248,-4792,-13876
3648,-84,-16796
5264,2116,-16964
10588,3564,-16936
13424,-684,-13904
7740,-5092,-12056
4928,-2544,-15848
3864,-112,-17484
7164,3220,-17192
12196,2988,-15972
11704,-2132,-12832
5660,-4952,-12656
3844,-1968,-16220
6948,812,-18300
8988,4432,-16412
12036,972,-14076
8288,-5256,-12012
5000,-3396,-14804
3744,-8,-17668
7676,3360,-17616
11084,2168,-14748
11408,-1064,-12884
6016,-4744,-13296
3708,-756,-16596
4740,2308,-17092
10508,3572,-17584
13308,-320,-13796
8116,-4620,-11408
5264,-2776,-15644
4044,780,-17600
6728,2636,-17092
11108,2784,-15640
12488,-1180,-13540
6016,-5700,-12336
3944,-1780,-16204
7000,1232,-18564
8928,4268,-16440
11776,1200,-13856
9040,-4284,-12440
5584,-4016,-14668
3804,-368,-17544
6872,2884,-17120
11268,2972,-15344
12296,-892,-13360
6016,-4964,-12504
2964,-1428,-15832
3940,1748,-17348
9940,3304,-17932
13216,280,-14492
8880,-3404,-11448
5472,-3192,-14612
2992,-280,-16560
6492,1300,-17256
9968,3072,-15652
12560,-404,-13552
6956,-5200,-12352
4100,-2824,-16208
6196,1916,-18596
8700,3748,-16596
11692,1508,-13988
9272,-3112,-12312
5996,-4520,-14268
4196,-420,-17772
6384,2624,-17216
10692,3224,-15444
12940,-772,-13208
6784,-5296,-12648
3556,-2308,-16052
3080,248,-17160
8524,3316,-17376
13248,1624,-15260
9976,-2940,-11924
5648,-3808,-13720
2992,-1768,-16112
6784,472,-17868
9488,3588,-16048
12388,252,-13776
7488,-5084,-12264
4412,-3556,-15620
5252,1700,-18484
8552,3836,-17076
11476,1776,-14000
10088,-2124,-12240
6180,-4432,-14312
4292,96,-17804
5812,2556,-17044
10628,3520,-16324
13484,-832,-13596
7236,-5508,-12148
4736,-2252,-16132
4440,-12,-17816
7564,3632,-17048
12316,2664,-15376
10980,-2584,-12564
5904,-4476,-13052
3620,-1940,-16372
6892,720,-18036
9216,3980,-16188
12180,780,-13712
8192,-5252,-12256
4960,-3576,-15224
3680,328,-17612
8464,3824,-17488
11624,1896,-14284
11016,-1388,-12532
5968,-4516,-13604
3000,-1356,-16096
3616,1624,-17132
9588,3220,-17712
13324,452,-14756
9212,-3240,-12004
5712,-3236,-14372
3220,-480,-16628
6404,1192,-17268
10048,3292,-15656
12760,-396,-13692
6884,-5248,-12288
4104,-2940,-16216
6020,1936,-18640
8616,3876,-16552
11756,1860,-14104
9732,-3132,-12704
5908,-4636,-14456
4156,8,-17356
6264,2520,-16748
10612,3240,-15616
13184,-672,-13848
6552,-5416,-12308
3712,-2052,-15936
2792,184,-16832
8652,3180,-17392
13088,1632,-15204
10084,-2584,-12020
5784,-3880,-13696
3136,-1756,-16100
6884,416,-17636
9396,3780,-16132
12452,280,-13616
7428,-5092,-12068
4472,-3664,-15836
4936,1532,-18524
8304,3832,-16904
11452,1956,-14244
10092,-2420,-12748
5928,-4516,-14092
4072,356,-17184
5964,2436,-17036
10772,3396,-16640
13484,-772,-13588
7272,-5484,-11956
4648,-2264,-16284
4472,220,-17940
7824,3596,-17208
12212,2516,-15252
10828,-2652,-12596
5796,-4500,-13120
3676,-1868,-16288
6936,692,-17980
9404,3908,-16020
12112,588,-13764
8148,-5056,-12432
4940,-3528,-15448
3424,308,-17492
8364,3736,-17344
11664,1712,-14420
10800,-1520,-12632
5804,-4304,-13680
3760,-128,-16904
5452,2612,-17564
10584,3404,-17412
13372,-708,-13872
7528,-5528,-11652
5112,-2072,-15752
4772,900,-17868
7404,3188,-17328
11012,2340,-15100
11536,-1628,-13176
6136,-5212,-12872
3776,-1760,-16744
6336,760,-17848
9316,4020,-16052
12424,988,-14060
8340,-4972,-12484
4992,-3636,-15096
3280,-268,-17148
7932,3516,-17384
11676,2300,-14980
11444,-1352,-12620
5884,-4488,-13392
2940,-900,-16188
4884,2100,-17164
10180,3104,-17376
13512,-280,-14332
8052,-4780,-11560
5416,-2624,-15044
3896,380,-17032
7132,2040,-17072
10152,2560,-14660
12036,-824,-13560
6456,-4916,-13008
3716,-2568,-16240
5488,1248,-18080
9480,3944,-16760
12552,656,-14064
8456,-4552,-12164
5228,-3476,-15308
3404,-464,-17336
7360,3220,-17044
11328,2752,-15348
12320,-1340,-12816
5992,-5152,-12760
3036,-2168,-15996
4636,1012,-17368
9032,3408,-17040
13100,760,-14644
8756,-4532,-11708
5280,-3288,-14644
3120,-256,-16288
6996,1452,-17168
10076,2772,-15248
11972,-468,-13612
6912,-4656,-12760
3604,-2636,-15840
4880,2016,-17776
9932,3784,-17312
12432,444,-13736
8688,-3584,-12020
5564,-3588,-15352
3544,-756,-17600
6192,2708,-16888
11032,3404,-15888
13036,-1316,-13492
6104,-5664,-12360
4044,-2344,-15800
6040,856,-18116
8692,4336,-17228
12288,1596,-14036
9244,-4340,-11640
5700,-3660,-14436
3048,-932,-16636
6560,1572,-17160
9980,2916,-15028
12292,-128,-13704
7060,-4944,-12724
3620,-2736,-15732
3740,1616,-16992
9972,3688,-17540
12536,420,-14264
9228,-2884,-11832
5532,-3836,-14692
4344,100,-17624
6144,2676,-17080
10932,3336,-16444
13220,-908,-13724
6464,-6148,-11964
4356,-1816,-15980
6212,1404,-18428
8656,4256,-17348
11484,1408,-14004
9892,-3244,-12524
5856,-4432,-14032
3320,-724,-16968
6204,1856,-17220
10172,3452,-15528
12916,-340,-14276
6752,-5048,-12440
3520,-2432,-15228
3204,1096,-16868
9720,3344,-18072
12648,1100,-14672
9868,-2408,-11888
5772,-4060,-14080
2652,-688,-16244
5956,1484,-16856
9932,3304,-16484
13216,-392,-14396
7300,-5636,-12060
4288,-2508,-15400
5528,1960,-17948
8284,3356,-17096
11216,1744,-14624
10268,-2276,-12832
6328,-4640,-13776
4148,-408,-17188
5988,2404,-17396
10624,3320,-16052
13116,-456,-13536
7016,-5300,-12208
3904,-2420,-15840
2428,-204,-17032
7852,3120,-17392
13196,2032,-15612
10616,-2140,-12180
5704,-4236,-12956
3324,-2232,-16096
6628,276,-18020
9388,3920,-16692
12416,444,-13920
7768,-5260,-12028
4512,-3604,-15296
4468,1484,-18096
7920,3788,-17220
11252,1912,-14660
10584,-1704,-13068
6220,-4816,-13492
3688,-160,-16868
5484,2272,-17048
10504,3424,-17036
13308,-580,-14008
7520,-5088,-11988
4828,-2564,-15892
3700,-280,-17608
7244,3264,-17036
12304,2912,-15760
11588,-2112,-12872
5796,-4892,-12772
3588,-2008,-16120
7148,804,-18424
9076,4304,-16360
11936,920,-13820
8380,-5368,-12164
5084,-3444,-15096
3260,-124,-17304
7764,3584,-17416
11436,2184,-14732
11308,-1236,-12832
5988,-4584,-13268
3288,-484,-16688
4912,2332,-17256
10536,3332,-17644
13416,-420,-14180
8168,-4852,-11628
5264,-2632,-15320
4116,776,-17276
7124,2692,-17264
10668,2644,-15476
12176,-1156,-13496
6300,-5396,-12684
3760,-2000,-16420
6328,1096,-18360
8780,4064,-16744
12020,1128,-14268
8836,-4488,-12464
5300,-3964,-14900
3620,-212,-17648
7396,3300,-17496
11060,2732,-15092
12316,-1020,-13412
6004,-5016,-13180
2808,-1056,-15932
3996,1904,-16804
9816,3264,-17768
13460,56,-14708
8720,-3932,-11804
5744,-3068,-14532
2960,-396,-16384
6908,1368,-17336
9808,2988,-15140
12340,-560,-13832
6608,-5004,-12560
4132,-3080,-16344
5756,1700,-18424
8952,4040,-16560
12004,1332,-14004
9104,-3928,-12428
5708,-3860,-14840
4160,0,-17588
6640,3028,-17076
10736,3032,-15632
12936,-1112,-13496
6316,-5712,-12664
3664,-2136,-16304
4048,520,-17352
8564,3656,-17296
13100,1452,-14964
9568,-3844,-12164
5516,-3660,-14028
3204,-1428,-16392
7104,992,-17548
9344,3284,-15236
12188,152,-14036
7276,-5048,-12676
3832,-3216,-15620
4396,1848,-17748
9576,3852,-17536
12148,992,-14000
9220,-2800,-12180
5856,-3864,-14820
4336,-52,-17676
6192,2476,-16932
10516,3288,-16296
13340,-952,-13668
6604,-5908,-12104
4684,-2092,-16136
5544,768,-18124
8092,4208,-17256
11964,2160,-14808
10204,-3256,-12208
5820,-4264,-14012
3488,-1360,-17012
6564,772,-17424
9168,3428,-15540
12240,356,-14040
7608,-5172,-12952
4476,-3488,-16008
3668,660,-17260
9136,3976,-17552
11592,1516,-14276
10064,-2228,-12376
6104,-4232,-14504
3700,-216,-17312
5648,2568,-17012
10592,3516,-16824
13348,-748,-13824
7204,-5916,-12088
4688,-2168,-15768
5364,1044,-18148
7808,3724,-16976
11364,2404,-14460
11252,-2336,-12948
6072,-4932,-13432
3668,-1672,-16728
6320,772,-17328
9076,3932,-15552
12612,652,-14352
8240,-5244,-12732
4636,-3560,-15196
2940,88,-17096
8472,3812,-17584
11852,1948,-14720
10924,-1580,-12536
5844,-4416,-13668
2992,-588,-16532
5240,2320,-17120
10136,3344,-17208
13364,-480,-14420
7988,-5284,-12104
4960,-2452,-15084
4328,912,-17464
7876,2924,-17332
10524,2272,-14468
11644,-1156,-13368
6424,-5032,-13068
3656,-2128,-16704
5856,1148,-17880
9028,3944,-15964
12548,676,-14416
8376,-4904,-12728
4940,-3608,-14980
3716,-184,-17376
7948,3688,-17376
11324,2544,-14784
11940,-1528,-12744
5780,-5016,-13048
2744,-1364,-16060
4812,1776,-17260
9472,3380,-17208
13336,220,-14564
8396,-4808,-11704
5280,-3000,-14836
3536,264,-16636
7380,1708,-17100
9424,3704,-15676
12396,72,-14004
7320,-5292,-12604
4324,-3480,-15708
4800,1492,-17840
8620,4024,-16936
11888,1536,-14356
9856,-2904,-12504
5928,-4116,-14272
4124,-44,-17388
6328,2704,-16836
10592,3308,-16316
13264,-884,-13632
6860,-5848,-12228
4564,-2128,-16164
4968,476,-17764
7856,4080,-17104
12316,2324,-15084
10404,-3176,-12648
5740,-4420,-13640
3428,-1500,-16504
7100,940,-17608
9432,3744,-15676
12028,496,-13924
7672,-5244,-12584
4352,-3292,-15404
3716,696,-17412
8988,3812,-17336
11728,1416,-14216
10156,-1960,-12388
5884,-4272,-14148
3876,-156,-17184
5620,2532,-17068
10684,3496,-16844
13428,-820,-14056
7068,-5884,-11900
4592,-2196,-15752
5332,1104,-18080
8056,3748,-16984
11560,2264,-14728
10992,-2348,-12812
5980,-4968,-13400
3736,-1576,-16676
6380,764,-17456
9340,3860,-15752
12416,612,-14032
7872,-5120,-12444
4596,-3376,-15264
3176,92,-17216
8924,3764,-17824
11596,1684,-14416
10760,-1812,-12252
5696,-4340,-13752
3396,-224,-17112
5460,2404,-17232
10228,3104,-17072
13352,-440,-14180
7748,-5512,-12000
4868,-2392,-15432
4676,1312,-17332
7980,3028,-17296
10736,2104,-14808
11228,-1544,-13132
6300,-5012,-13044
3820,-2092,-16576
6032,1024,-17984
9304,3880,-16088
12512,676,-14220
8076,-4980,-12592
4972,-3572,-15476
3272,-256,-17112
8056,3668,-17304
11424,2260,-14776
11672,-1468,-12924
5656,-4888,-13380
2532,-1452,-16120
4912,1632,-17116
9560,3416,-17204
13124,40,-14408
8160,-4924,-12016
5200,-2992,-15004
3604,648,-16984
7600,2112,-17248
10036,2404,-14708
11576,-732,-13668
6592,-4760,-13124
3472,-2316,-16340
5220,1860,-17652
9804,3796,-16716
12736,404,-14260
8216,-4412,-12292
5364,-3420,-15236
3376,-600,-17180
7224,3076,-17040
11184,2880,-15096
12656,-1268,-13128
5744,-5236,-12792
3432,-2484,-16400
5528,684,-17816
8568,4024,-17040
12704,1132,-14520
8976,-4936,-12080
5156,-3492,-14796
3196,-384,-16576
7180,1620,-17072
9788,2588,-14704
11732,-252,-13540
7256,-4800,-13316
3540,-2696,-16064
4440,2164,-17140
10152,3772,-17068
12748,312,-14348
8744,-3584,-12228
5492,-3628,-14780
3832,-296,-17456
6376,2800,-17272
10828,3248,-15964
12884,-1160,-13192
6072,-5548,-12424
4200,-2316,-16560
5964,676,-18108
8368,4348,-16768
12332,1892,-14172
9592,-4336,-12184
5672,-3884,-14384
3252,-936,-16596
6852,1456,-17092
9892,3052,-15280
12200,-56,-13972
7076,-5052,-12772
3556,-2888,-15508
4000,1540,-17152
10124,3788,-17748
12272,700,-13940
9156,-2644,-11776
5772,-3872,-15064
4112,-104,-17700
6220,2740,-16884
10832,3336,-16324
13008,-1104,-13596
6688,-5932,-12240
4412,-2000,-15964
6096,1160,-18432
8492,4320,-17108
11572,1772,-13912
10048,-3184,-12316
5984,-4284,-14008
3448,-1248,-16972
5928,1280,-17292
9740,3480,-15264
12608,-56,-14048
7360,-5104,-12724
4072,-3052,-15608
3648,652,-17076
9488,3824,-17792
11992,1496,-14300
10132,-2316,-12000
5772,-4152,-14256
3476,-132,-16840
5920,2340,-17016
10136,3312,-16688
13252,-604,-14148
7484,-5928,-12108
4396,-2388,-15384
5376,1612,-17864
8132,3432,-17288
10820,1972,-14240
10724,-2004,-12896
6260,-4776,-13728
3304,-1136,-16864
5556,1532,-17160
10076,3804,-15944
12956,-144,-13944
7456,-5120,-12512
4220,-2884,-15468
3020,96,-17208
8520,3320,-17684
11888,2052,-14672
11064,-1700,-12220
5888,-4620,-13800
2664,-2128,-16280
5448,956,-16972
9468,3744,-16548
12800,96,-14120
7908,-5360,-11960
5036,-3104,-15440
4252,1088,-17368
7684,2860,-16916
10840,2504,-14444
11164,-1356,-13280
6512,-4612,-13516
3548,-1396,-16308
5568,2180,-17408
10324,3616,-16612
12908,-296,-13784
7852,-4804,-12156
4848,-3028,-15512
2912,-608,-17072
7484,3108,-17364
11624,2724,-15404
11712,-1676,-12492
5708,-4860,-12920
3464,-2640,-16360
5932,612,-17804
9140,4256,-17016
12432,800,-13920
8292,-5232,-11948
4972,-3324,-15136
3404,536,-17344
7496,2908,-17308
10612,2380,-14788
11584,-872,-13136
6620,-4984,-13336
3384,-2080,-16208
4780,1736,-17072
10368,3672,-17164
12704,108,-14116
8196,-4164,-11956
5264,-3344,-15448
3804,-204,-17512
6912,2984,-17004
11156,3116,-15632
12416,-1188,-13176
5880,-5512,-12728
3968,-2424,-16236
6212,916,-17900
9572,4388,-17176
12212,1180,-13672
8584,-4868,-11564
5508,-3580,-14884
3464,100,-17352
6988,2708,-17104
10476,2788,-14884
12036,-628,-13576
6636,-5188,-13076
3472,-2220,-15868
4232,1392,-16896
10408,3636,-17668
12224,288,-13840
8872,-3732,-11680
5464,-3560,-15284
4032,232,-17632
6764,2764,-17024
10700,3068,-15744
12528,-724,-13436
6148,-5888,-12532
4284,-2100,-16172
6324,1208,-18248
9036,4336,-17168
11672,1568,-13836
9172,-4068,-12288
5660,-4004,-14748
3724,-44,-17396
6524,2432,-17108
10392,3056,-15356
12440,-564,-13792
6592,-5220,-12860
3524,-2140,-15872
3792,1400,-16916
10260,3648,-17912
12396,644,-14016
9320,-3156,-11788
5672,-3772,-14896
3360,136,-17256
6232,2112,-17120
10236,3212,-16116
12920,-520,-13752
6836,-5864,-12348
4284,-2412,-16136
6080,1768,-18376
8748,4060,-16848
11448,1628,-13860
9824,-3240,-12432
5912,-4340,-14448
3628,-276,-17376
6316,2080,-17092
10484,3280,-15668
12804,-552,-14004
6556,-5332,-12568
3752,-2240,-15604
3640,996,-17084
9624,3512,-17760
12320,1076,-14140
9856,-2480,-11680
5696,-4060,-14420
2912,-652,-16788
6120,1444,-16848
9800,3428,-15908
12960,-220,-13980
7144,-5668,-12260
4352,-2728,-15732
5516,1904,-18080
8576,3612,-17024
11068,1680,-14076
10032,-2400,-12992
6372,-4688,-14044
3792,-692,-17456
5828,2104,-17072
10264,3580,-15664
12984,-408,-13936
6992,-5312,-12808
3996,-2460,-15856
3104,216,-17068
8820,3440,-17700
12240,1512,-14272
10420,-2036,-12100
5812,-4184,-13856
2716,-1816,-16208
5928,848,-17040
9428,3752,-16228
12884,56,-14032
7628,-5416,-12172
4516,-3004,-15524
4864,1768,-17692
8512,3424,-17180
10804,1888,-14092
10564,-1764,-13004
6472,-4880,-14004
3924,-648,-17096
5652,2528,-17344
10520,3396,-16472
13064,-476,-13776
7144,-5232,-12220
4696,-2732,-15976
3344,-292,-17392
7552,3372,-17260
11988,2240,-14996
11240,-2012,-12748
5496,-4520,-13396
3532,-2280,-16396
6640,584,-17684
9356,4220,-16528
12196,492,-13876
8032,-5320,-12220
4824,-3476,-15572
4304,1192,-18052
7920,3592,-17076
10888,1956,-14328
10720,-1484,-13400
6244,-4944,-13844
3732,-384,-17004
5316,2396,-17020
10836,3452,-17136
13040,-680,-13780
7548,-5220,-12012
4872,-2600,-16072
3776,-16,-17700
7392,3580,-17144
11892,2656,-15296
11588,-1992,-12848
5796,-4964,-12944
3688,-2048,-16368
6936,660,-18200
9684,4516,-16604
12020,792,-13648
8264,-5316,-12120
4948,-3476,-15292
3760,376,-17612
7788,3676,-17136
11092,2028,-14424
11088,-1452,-12772
6120,-4424,-13676
3732,-476,-17116
5312,2456,-17424
10840,3588,-17464
13072,-644,-13588
7804,-5224,-11716
5080,-2492,-15852
4432,888,-17832
7412,3436,-17200
11172,2552,-15020
11808,-1608,-13072
6136,-5412,-13072
3780,-1760,-16364
6788,892,-18064
9256,4320,-16540
12052,1032,-14012
8372,-4796,-12516
5180,-3720,-15240
3416,-408,-17456
7636,3376,-17412
11224,2432,-14664
11588,-1192,-12792
6148,-4540,-13596
3388,-836,-16900
4784,2384,-17144
10292,3492,-17340
13372,-424,-14132
8240,-4712,-12024
5448,-2408,-15108
4224,504,-17368
7160,2556,-17120
10604,2624,-15300
12152,-1168,-13496
6356,-5308,-13040
3808,-2072,-16836
6304,1068,-17984
8668,4088,-16316
12060,1144,-14240
8816,-4672,-12684
5344,-3684,-15100
3552,-388,-17252
7232,3256,-16952
11300,2796,-15356
12096,-1320,-13164
5940,-5076,-12976
2776,-1376,-15824
4688,1768,-17112
9860,3484,-17624
13096,80,-14412
8532,-4160,-11716
5408,-3072,-15048
3236,264,-16784
7184,1880,-17156
10060,2768,-15112
11864,-416,-13720
6720,-5080,-12992
4068,-2920,-16460
6156,1624,-18264
9292,3964,-16456
11960,1264,-14096
8608,-4164,-12400
5596,-3864,-15320
3848,-264,-17496
6740,3004,-16904
10912,2948,-15288
12428,-984,-13704
7092,-5540,-12760
4272,-2528,-15708
4176,152,-17264
8200,3604,-17376
11960,2120,-14808
10524,-2704,-12276
5736,-4184,-13788
3612,-2004,-16928
6568,656,-17472
9596,4096,-15892
12180,448,-13828
7872,-5328,-12540
4500,-3644,-15656
4240,1028,-17720
8036,3744,-16768
11648,1840,-14404
10544,-2092,-12952
5884,-4492,-13920
3844,-360,-16680
5824,2292,-17124
10512,3256,-17052
13584,-772,-13996
7380,-5648,-11976
4628,-2280,-15932
3568,28,-17140
7252,3364,-16772
12440,2420,-15820
11488,-2492,-12928
5504,-4552,-13060
2596,-1092,-15432
5848,872,-17648
10012,4000,-17504
12936,-216,-13912
7808,-5432,-11596
4844,-2984,-15452
4740,1404,-18144
7640,3436,-17196
11104,2408,-14976
11420,-1796,-13060
6040,-5280,-13740
3252,-24,-16456
5744,2332,-17060
9860,3272,-17084
13224,-552,-14668
7824,-5620,-12256
4868,-2400,-15112
4284,624,-17448
7444,3316,-17252
11388,2424,-15112
11300,-1708,-12928
5844,-5072,-12932
3104,-1468,-16040
5240,1668,-17128
9640,3664,-16940
13292,-124,-14856
7816,-5492,-12116
5020,-3044,-15180
4036,720,-17252
7132,3516,-16872
11720,2708,-16104
11812,-1620,-13880
5748,-5316,-12724
3468,-1884,-15588
5948,1276,-17556
9388,3832,-17156
12580,528,-14580
8040,-5344,-11968
5228,-3416,-14884
